Folder: Elements/Thesis/XRD

Note: Thesis/README.txt
IISc Thesis Folder Structure:
1. Each section (Introduction, Experimental Details, etc..) are inside the "Chapters" folder.
2.

File: Ti-6246.CSV
No.,Pos. [°2Th.],Iobs [cts],Icalc [cts],Iback [cts],CT [s],ESD,D spacings
1,30.0097,156.9955, , ,224.7900, ,2.97527
14,30.4387,146.4934, , ,224.7900, ,2.93430
27,30.8677,118.6017, , ,224.7900, ,2.89449
40,31.2967,152.9864, , ,224.7900, ,2.85579
53,31.7257,135.2872, , ,224.7900, ,2.81814
66,32.1547,143.3182, , ,224.7900, ,2.78152
79,32.5837,159.8007, , ,224.7900, ,2.74587
92,33.0127,118.1574, , ,224.7900, ,2.71116
105,33.4417,123.5815, , ,224.7900, ,2.67735
118,33.8707,115.4728, , ,224.7900, ,2.64442
131,34.2997,119.2805, , ,224.7900, ,2.61232
144,34.7287,141.6276, , ,224.7900, ,2.58102
157,35.1577,287.9563, , ,224.7900, ,2.55051
170,35.5867,250.2000, , ,224.7900, ,2.52074
183,36.0157,144.4964, , ,224.7900, ,2.49169
196,36.4447,139.9228, , ,224.7900, ,2.46334
209,36.8737,132.6389, , ,224.7900, ,2.43566
222,37.3027,143.6266, , ,224.7900, ,2.40862
235,37.7317,169.1152, , ,224.7900, ,2.38222
248,38.1607,332.4313, , ,224.7900, ,2.35642
261,38.5897,749.7870, , ,224.7900, ,2.33120
274,39.0187,568.0311, , ,224.7900, ,2.30656
287,39.4477,475.9774, , ,224.7900, ,2.28245
300,39.8767,412.8350, , ,224.7900, ,2.25888
313,40.3057,1533.92, , ,224.7900, ,2.23582
326,40.7347,514.9721, , ,224.7900, ,2.21326
339,41.1637,182.9016, , ,224.7900, ,2.19118
352,41.5927,126.1305, , ,224.7900, ,2.16957
365,42.0217,94.1731, , ,224.7900, ,2.14840
378,42.4507,92.4226, , ,224.7900, ,2.12768
391,42.8797,86.9258, , ,224.7900, ,2.10738
404,43.3087,96.9605, , ,224.7900, ,2.08749
417,43.7377,79.4129, , ,224.7900, ,2.06801
430,44.1667,62.3095, , ,224.7900, ,2.04891
443,44.5957,58.5240, , ,224.7900, ,2.03019
456,45.0247,54.7402, , ,224.7900, ,2.01184
469,45.4537,68.9206, , ,224.7900, ,1.99385
482,45.8827,72.6723, , ,224.7900, ,1.97620
495,46.3117,67.9852, , ,224.7900, ,1.95888
508,46.7407,65.1845, , ,224.7900, ,1.94190
521,47.1697,51.4590, , ,224.7900, ,1.92523
534,47.5987,62.2874, , ,224.7900, ,1.90888
547,48.0277,64.5878, , ,224.7900, ,1.89282
560,48.4567,52.9417, , ,224.7900, ,1.87706
573,48.8857,60.7638, , ,224.7900, ,1.86159
586,49.3147,62.7451, , ,224.7900, ,1.84640
599,49.7437,50.6366, , ,224.7900, ,1.83147
612,50.1727,52.2078, , ,224.7900, ,1.81681
625,50.6017,64.1140, , ,224.7900, ,1.80241
638,51.0307,41.1718, , ,224.7900, ,1.78826
651,51.4597,52.0907, , ,224.7900, ,1.77436
664,51.8887,57.7242, , ,224.7900, ,1.76069
677,52.3177,79.8191, , ,224.7900, ,1.74726
690,52.7467,163.4044, , ,224.7900, ,1.73405
703,53.1757,527.5899, , ,224.7900, ,1.72107
716,53.6047,133.4006, , ,224.7900, ,1.70830
729,54.0337,80.9955, , ,224.7900, ,1.69575
742,54.4627,67.8360, , ,224.7900, ,1.68340
755,54.8917,63.3910, , ,224.7900, ,1.67126
768,55.3207,73.2514, , ,224.7900, ,1.65931
781,55.7497,146.6019, , ,224.7900, ,1.64755
794,56.1787,288.4740, , ,224.7900, ,1.63598
807,56.6077,282.1741, , ,224.7900, ,1.62460
820,57.0367,127.6718, , ,224.7900, ,1.61339
833,57.4657,63.2243, , ,224.7900, ,1.60236
846,57.8947,56.2179, , ,224.7900, ,1.59151
859,58.3237,54.1623, , ,224.7900, ,1.58082
872,58.7527,52.8946, , ,224.7900, ,1.57029
885,59.1817,41.2828, , ,224.7900, ,1.55993
898,59.6107,55.7855, , ,224.7900, ,1.54973
911,60.0397,43.9936, , ,224.7900, ,1.53967
924,60.4687,51.6595, , ,224.7900, ,1.52977
937,60.8977,46.6645, , ,224.7900, ,1.52002
950,61.3267,43.0451, , ,224.7900, ,1.51041
963,61.7557,61.6799, , ,224.7900, ,1.50094
976,62.1847,61.0249, , ,224.7900, ,1.49162
989,62.6137,78.0901, , ,224.7900, ,1.48242
1002,63.0427,278.9209, , ,224.7900, ,1.47336
1015,63.4717,432.5650, , ,224.7900, ,1.46444
1028,63.9007,94.5468, , ,224.7900, ,1.45563
1041,64.3297,62.5107, , ,224.7900, ,1.44696
1054,64.7587,50.9972, , ,224.7900, ,1.43841
1067,65.1877,44.0909, , ,224.7900, ,1.42997
1080,65.6167,51.8435, , ,224.7900, ,1.42166
1093,66.0457,56.2460, , ,224.7900, ,1.41346
1106,66.4747,54.5841, , ,224.7900, ,1.40538
1119,66.9037,40.8636, , ,224.7900, ,1.39740
1132,67.3327,40.3054, , ,224.7900, ,1.38954
1145,67.7617,58.0100, , ,224.7900, ,1.38178
1158,68.1907,58.5909, , ,224.7900, ,1.37413
1171,68.6197,49.5802, , ,224.7900, ,1.36658
1184,69.0487,58.8201, , ,224.7900, ,1.35914
1197,69.4777,92.6706, , ,224.7900, ,1.35179
1210,69.9067,103.9943, , ,224.7900, ,1.34454
1223,70.3357,242.4576, , ,224.7900, ,1.33739
1236,70.7647,515.2255, , ,224.7900, ,1.33033
1249,71.1937,254.6967, , ,224.7900, ,1.32336
1262,71.6227,99.8895, , ,224.7900, ,1.31648
1275,72.0517,74.6509, , ,224.7900, ,1.30970
1288,72.4807,57.6566, , ,224.7900, ,1.30300
1301,72.9097,55.5620, , ,224.7900, ,1.29639
1314,73.3387,41.8027, , ,224.7900, ,1.28986
1327,73.7677,49.0695, , ,224.7900, ,1.28341
1340,74.1967,51.3568, , ,224.7900, ,1.27705
1353,74.6257,65.0888, , ,224.7900, ,1.27077
1366,75.0547,70.2798, , ,224.7900, ,1.26457
1379,75.4837,59.1024, , ,224.7900, ,1.25844
1392,75.9127,124.3870, , ,224.7900, ,1.25239
1405,76.3417,215.2865, , ,224.7900, ,1.24642
1418,76.7707,166.4129, , ,224.7900, ,1.24052
1431,77.1997,85.5074, , ,224.7900, ,1.23470
1444,77.6287,94.9367, , ,224.7900, ,1.22894
1457,78.0577,80.7310, , ,224.7900, ,1.22326
1470,78.4867,55.1412, , ,224.7900, ,1.21764
1483,78.9157,42.6386, , ,224.7900, ,1.21209
1496,79.3447,46.3963, , ,224.7900, ,1.20662
1509,79.7737,29.3858, , ,224.7900, ,1.20120
1522,80.2027,48.7683, , ,224.7900, ,1.19585
1535,80.6317,35.8264, , ,224.7900, ,1.19057
1548,81.0607,35.7572, , ,224.7900, ,1.18535
1561,81.4897,45.2166, , ,224.7900, ,1.18019
1574,81.9187,50.9972, , ,224.7900, ,1.17509
1587,82.3477,47.0089, , ,224.7900, ,1.17005
1600,82.7767,42.9976, , ,224.7900, ,1.16507
1613,83.2057,47.4800, , ,224.7900, ,1.16015
1626,83.6347,47.0849, , ,224.7900, ,1.15529
1639,84.0637,45.9975, , ,224.7900, ,1.15048
1652,84.4927,43.6031, , ,224.7900, ,1.14573
1665,84.9217,34.9245, , ,224.7900, ,1.14104
1678,85.3507,30.6145, , ,224.7900, ,1.13640
1691,85.7797,36.1583, , ,224.7900, ,1.13181
1704,86.2087,47.0031, , ,224.7900, ,1.12727
1717,86.6377,37.8918, , ,224.7900, ,1.12279
1730,87.0667,64.7328, , ,224.7900, ,1.11836
1743,87.4957,45.9975, , ,224.7900, ,1.11398
1756,87.9247,34.5006, , ,224.7900, ,1.10964
1769,88.3537,31.9982, , ,224.7900, ,1.10536
1782,88.7827,30.6740, , ,224.7900, ,1.10113
1795,89.2117,39.9663, , ,224.7900, ,1.09694
1808,89.6407,34.1614, , ,224.7900, ,1.09280
1821,90.0697,32.0507, , ,224.7900, ,1.08871
1834,90.4987,31.0457, , ,224.7900, ,1.08466
1847,90.9277,31.7117, , ,224.7900, ,1.08065
1860,91.3567,31.0299, , ,224.7900, ,1.07670
1873,91.7857,42.3304, , ,224.7900, ,1.07278
1886,92.2147,46.8437, , ,224.7900, ,1.06891
1899,92.6437,69.9427, , ,224.7900, ,1.06508
1912,93.0727,50.2871, , ,224.7900, ,1.06129
1925,93.5017,49.3497, , ,224.7900, ,1.05755
1938,93.9307,45.9127, , ,224.7900, ,1.05385
1951,94.3597,38.9641, , ,224.7900, ,1.05018
1964,94.7887,35.3645, , ,224.7900, ,1.04656
1977,95.2177,35.9603, , ,224.7900, ,1.04297
1990,95.6467,31.3071, , ,224.7900, ,1.03943
2003,96.0757,54.5460, , ,224.7900, ,1.03592
2016,96.5047,52.1101, , ,224.7900, ,1.03246
2029,96.9337,56.1654, , ,224.7900, ,1.02902
2042,97.3627,56.3015, , ,224.7900, ,1.02563
2055,97.7917,50.8117, , ,224.7900, ,1.02227
2068,98.2207,48.9973, , ,224.7900, ,1.01895
2081,98.6497,39.5585, , ,224.7900, ,1.01567
2094,99.0787,37.7207, , ,224.7900, ,1.01242
2107,99.5077,35.4997, , ,224.7900, ,1.00920
2120,99.9367,27.9434, , ,224.7900, ,1.00602
2133,100.3657,33.1847, , ,224.7900, ,1.00287
2146,100.7947,34.1158, , ,224.7900, ,0.99976
2159,101.2237,42.8695, , ,224.7900, ,0.99668
2172,101.6527,49.8901, , ,224.7900, ,0.99363
2185,102.0817,81.3794, , ,224.7900, ,0.99062
2198,102.5107,94.1164, , ,224.7900, ,0.98764
2211,102.9397,101.8964, , ,224.7900, ,0.98468
2224,103.3687,66.4537, , ,224.7900, ,0.98176
2237,103.7977,53.9596, , ,224.7900, ,0.97888
2250,104.2267,42.2950, , ,224.7900, ,0.97602
2263,104.6557,45.9816, , ,224.7900, ,0.97319
2276,105.0847,47.0871, , ,224.7900, ,0.97039
2289,105.5137,42.9976, , ,224.7900, ,0.96762
2302,105.9427,52.2781, , ,224.7900, ,0.96488
2315,106.3717,67.7932, , ,224.7900, ,0.96217
2328,106.8007,68.6014, , ,224.7900, ,0.95949
2341,107.2297,50.3404, , ,224.7900, ,0.95684
2354,107.6587,55.4932, , ,224.7900, ,0.95421
2367,108.0877,49.1133, , ,224.7900, ,0.95161
2380,108.5167,57.8361, , ,224.7900, ,0.94904
2393,108.9457,81.9176, , ,224.7900, ,0.94650
2406,109.3747,110.2079, , ,224.7900, ,0.94398
2419,109.8037,124.5955, , ,224.7900, ,0.94149
2432,110.2327,103.7924, , ,224.7900, ,0.93903
2445,110.6617,111.0308, , ,224.7900, ,0.93659
2458,111.0907,58.1210, , ,224.7900, ,0.93418
2471,111.5197,46.6385, , ,224.7900, ,0.93179
2484,111.9487,54.4462, , ,224.7900, ,0.92943
2497,112.3777,43.1251, , ,224.7900, ,0.92709
2510,112.8067,58.6300, , ,224.7900, ,0.92478
2523,113.2357,80.2530, , ,224.7900, ,0.92249
2536,113.6647,86.2358, , ,224.7900, ,0.92023
2549,114.0937,115.7059, , ,224.7900, ,0.91799
2562,114.5227,133.3695, , ,224.7900, ,0.91577
2575,114.9517,105.7831, , ,224.7900, ,0.91358
2588,115.3807,53.4121, , ,224.7900, ,0.91141
2601,115.8097,37.0887, , ,224.7900, ,0.90926
2614,116.2387,57.7908, , ,224.7900, ,0.90714
2627,116.6677,52.2077, , ,224.7900, ,0.90504
2640,117.0967,37.6301, , ,224.7900, ,0.90296
2653,117.5257,48.6155, , ,224.7900, ,0.90090
2666,117.9547,44.1475, , ,224.7900, ,0.89887
2679,118.3837,49.4215, , ,224.7900, ,0.89686
2692,118.8127,59.6511, , ,224.7900, ,0.89487
2705,119.2417,56.0414, , ,224.7900, ,0.89290
2718,119.6707,54.7425, , ,224.7900, ,0.89095
2727,119.9677,55.3116, , ,224.7900, ,0.88961